# Wavelength   laser   raw filt
# nm   uJ  V   V
# Filtered data in range (1.0:10.0) MHz
# First col is wavelength in [nm]
# Second col is laser energy in [uJ]
# Third col is normalized (to laser energy) raw PA amp in [V]
# Forth col is normalized (to laser energy) filt PA amp in [V]
9.400e+02 6.264e+02 4.711e-05 4.130e-05
9.300e+02 5.142e+02 5.627e-05 4.499e-05
9.200e+02 4.224e+02 6.495e-05 5.602e-05
9.100e+02 4.925e+02 6.146e-05 5.129e-05
9.000e+02 4.636e+02 6.054e-05 5.286e-05
8.900e+02 4.980e+02 4.478e-05 3.666e-05
8.800e+02 5.305e+02 8.065e-05 7.505e-05
8.700e+02 4.637e+02 5.345e-05 3.859e-05
8.600e+02 5.252e+02 9.290e-05 8.817e-05
8.500e+02 5.375e+02 1.023e-04 9.522e-05
8.400e+02 4.985e+02 1.204e-04 1.123e-04
8.300e+02 4.311e+02 1.643e-04 1.573e-04
8.200e+02 5.231e+02 2.028e-04 1.949e-04
8.100e+02 4.931e+02 2.000e-04 1.889e-04
8.000e+02 5.499e+02 2.394e-04 2.222e-04
7.900e+02 4.904e+02 1.966e-04 1.917e-04
7.800e+02 5.272e+02 2.278e-04 2.208e-04
7.700e+02 5.458e+02 2.358e-04 2.328e-04
7.600e+02 4.820e+02 2.149e-04 2.088e-04
7.500e+02 5.284e+02 2.367e-04 2.206e-04
7.400e+02 4.555e+02 2.456e-04 2.133e-04
7.300e+02 5.098e+02 2.710e-04 2.661e-04
7.200e+02 5.272e+02 2.804e-04 2.855e-04
7.100e+02 4.967e+02 2.766e-04 2.708e-04
7.000e+02 4.991e+02 2.581e-04 2.442e-04
6.900e+02 8.102e+02 1.867e-04 1.918e-04
